sub_num,condition_timing,condition_stim,stim_id,cat,resp,rt,age,gender,date,prob_num,prob_num_grating,prob_num_binary,num_problems_solved,current_trial_prob,current_trial_stim,current_trial_exp,relevant_dim,x,y,xc
2,delay,grating,21,2,2,1.4849350452423096,,Prefer not to specify,2019-12-06,0,0,0,0,0,0,0,2,67.64221751686793,72.0,71.006665260041
2,delay,grating,26,1,2,0.7297070026397705,,Prefer not to specify,2019-12-06,0,0,0,0,1,1,1,2,73.52256893613314,72.0,71.006665260041
2,delay,grating,43,2,2,1.161186933517456,,Prefer not to specify,2019-12-06,0,0,0,0,2,2,2,2,68.6913214050541,72.0,71.006665260041
2,delay,grating,56,1,1,0.5516049861907959,,Prefer not to specify,2019-12-06,0,0,0,0,3,3,3,2,77.05658863113767,72.0,71.006665260041
2,delay,grating,8,2,2,0.8295180797576904,,Prefer not to specify,2019-12-06,0,0,0,0,4,4,4,2,66.44287017610678,72.0,71.006665260041
2,delay,grating,60,1,1,0.6373980045318604,,Prefer not to specify,2019-12-06,0,0,0,0,5,5,5,2,73.64826119879272,72.0,71.006665260041
2,delay,grating,36,1,1,0.8649110794067383,,Prefer not to specify,2019-12-06,0,0,0,0,6,6,6,2,77.71038248224718,72.0,71.006665260041
2,delay,grating,48,2,2,0.5401530265808105,,Prefer not to specify,2019-12-06,0,0,0,0,7,7,7,2,66.91787903579527,72.0,71.006665260041
2,delay,grating,53,1,2,0.6514019966125488,,Prefer not to specify,2019-12-06,0,0,0,0,8,8,8,2,79.32847287424853,72.0,71.006665260041
2,delay,grating,25,1,2,0.8969161510467529,,Prefer not to specify,2019-12-06,0,0,0,0,9,9,9,2,74.21739051099948,72.0,71.006665260041
2,delay,grating,4,2,2,0.7902340888977051,,Prefer not to specify,2019-12-06,0,0,0,0,10,10,10,2,66.96110859683121,72.0,71.006665260041
2,delay,grating,27,2,1,1.2479090690612793,,Prefer not to specify,2019-12-06,0,0,0,0,11,11,11,2,70.07360691102976,72.0,71.006665260041
2,delay,grating,47,2,2,0.6067922115325928,,Prefer not to specify,2019-12-06,0,0,0,0,12,12,12,2,67.04402024041038,72.0,71.006665260041
2,delay,grating,61,2,2,0.4484570026397705,,Prefer not to specify,2019-12-06,0,0,0,0,13,13,13,2,64.9840521826582,72.0,71.006665260041
2,delay,grating,57,2,2,1.1693460941314697,,Prefer not to specify,2019-12-06,0,0,0,0,14,14,14,2,64.49897684382061,72.0,71.006665260041
2,delay,grating,30,1,1,0.6254591941833496,,Prefer not to specify,2019-12-06,0,0,0,0,15,15,15,2,73.00113850577962,72.0,71.006665260041
2,delay,grating,11,1,1,1.038219928741455,,Prefer not to specify,2019-12-06,0,0,0,0,16,16,16,2,77.14549745017068,72.0,71.006665260041
2,delay,grating,12,1,2,1.1745688915252686,,Prefer not to specify,2019-12-06,0,0,0,0,17,17,17,2,73.80478096432556,72.0,71.006665260041
2,delay,grating,23,1,1,1.0631392002105713,,Prefer not to specify,2019-12-06,0,0,0,0,18,18,18,2,78.8585253523558,72.0,71.006665260041
2,delay,grating,6,2,2,0.6608378887176514,,Prefer not to specify,2019-12-06,0,0,0,0,19,19,19,2,67.11171101915477,72.0,71.006665260041
2,delay,grating,38,2,2,1.0093579292297363,,Prefer not to specify,2019-12-06,0,0,0,0,20,20,20,2,64.77084707294426,72.0,71.006665260041
2,delay,grating,16,1,2,1.2274129390716553,,Prefer not to specify,2019-12-06,0,0,0,0,21,21,21,2,72.3465277781622,72.0,71.006665260041
2,delay,grating,35,1,1,0.6487350463867188,,Prefer not to specify,2019-12-06,0,0,0,0,22,22,22,2,74.24687052496286,72.0,71.006665260041
2,delay,grating,1,2,2,2.458901882171631,,Prefer not to specify,2019-12-06,0,0,0,0,23,23,23,2,65.86357934712414,72.0,71.006665260041
2,delay,grating,18,2,2,1.0290720462799072,,Prefer not to specify,2019-12-06,0,0,0,0,24,24,24,2,65.31920590913981,72.0,71.006665260041
2,delay,grating,13,2,2,2.4365029335021973,,Prefer not to specify,2019-12-06,0,0,0,0,25,25,25,2,67.26136801975807,72.0,71.006665260041
2,delay,grating,34,1,1,2.067700147628784,,Prefer not to specify,2019-12-06,0,0,0,0,26,26,26,2,77.88569578656531,72.0,71.006665260041
2,delay,grating,29,1,1,0.5966219902038574,,Prefer not to specify,2019-12-06,0,0,0,0,27,27,27,2,73.30928629116238,72.0,71.006665260041
2,long_iti,binary,17,2,2,1.3781540393829346,,Prefer not to specify,2019-12-06,1,0,0,1,0,0,28,3,-1,-1,71.006665260041
2,long_iti,binary,33,2,2,0.9960901737213135,,Prefer not to specify,2019-12-06,1,0,0,1,1,1,29,3,-1,-1,71.006665260041
2,long_iti,binary,34,2,2,1.673680067062378,,Prefer not to specify,2019-12-06,1,0,0,1,2,2,30,3,-1,-1,71.006665260041
2,long_iti,binary,8,1,2,0.5513420104980469,,Prefer not to specify,2019-12-06,1,0,0,1,3,3,31,3,-1,-1,71.006665260041
2,long_iti,binary,29,1,1,0.7304601669311523,,Prefer not to specify,2019-12-06,1,0,0,1,4,4,32,3,-1,-1,71.006665260041
2,long_iti,binary,47,1,1,0.6774938106536865,,Prefer not to specify,2019-12-06,1,0,0,1,5,5,33,3,-1,-1,71.006665260041
2,long_iti,binary,38,2,2,1.3022589683532715,,Prefer not to specify,2019-12-06,1,0,0,1,6,6,34,3,-1,-1,71.006665260041
2,long_iti,binary,42,1,1,0.7382469177246094,,Prefer not to specify,2019-12-06,1,0,0,1,7,7,35,3,-1,-1,71.006665260041
2,long_iti,binary,26,1,1,2.980712890625,,Prefer not to specify,2019-12-06,1,0,0,1,8,8,36,3,-1,-1,71.006665260041
2,long_iti,binary,37,2,2,0.6030220985412598,,Prefer not to specify,2019-12-06,1,0,0,1,9,9,37,3,-1,-1,71.006665260041
2,delay,binary,41,1,2,1.3225030899047852,,Prefer not to specify,2019-12-06,2,0,0,2,0,0,38,1,-1,-1,71.006665260041
2,delay,binary,56,1,1,2.209023952484131,,Prefer not to specify,2019-12-06,2,0,0,2,1,1,39,1,-1,-1,71.006665260041
2,delay,binary,50,1,1,1.0539119243621826,,Prefer not to specify,2019-12-06,2,0,0,2,2,2,40,1,-1,-1,71.006665260041
2,delay,binary,15,2,2,0.6062178611755371,,Prefer not to specify,2019-12-06,2,0,0,2,3,3,41,1,-1,-1,71.006665260041
2,delay,binary,1,2,2,1.561629056930542,,Prefer not to specify,2019-12-06,2,0,0,2,4,4,42,1,-1,-1,71.006665260041
2,delay,binary,40,1,1,1.5316479206085205,,Prefer not to specify,2019-12-06,2,0,0,2,5,5,43,1,-1,-1,71.006665260041
2,delay,binary,44,1,1,0.7447309494018555,,Prefer not to specify,2019-12-06,2,0,0,2,6,6,44,1,-1,-1,71.006665260041
2,delay,binary,24,2,2,0.8477861881256104,,Prefer not to specify,2019-12-06,2,0,0,2,7,7,45,1,-1,-1,71.006665260041
2,delay,binary,37,1,1,0.4938218593597412,,Prefer not to specify,2019-12-06,2,0,0,2,8,8,46,1,-1,-1,71.006665260041
2,delay,binary,48,1,1,0.9853019714355469,,Prefer not to specify,2019-12-06,2,0,0,2,9,9,47,1,-1,-1,71.006665260041
2,long_iti,grating,24,2,1,1.815551996231079,,Prefer not to specify,2019-12-06,3,1,1,3,0,0,48,1,31.800584105083324,24.0,29.678380135806663
2,long_iti,grating,47,1,1,0.8393688201904297,,Prefer not to specify,2019-12-06,3,1,1,3,1,1,49,1,16.696793940899532,24.0,29.678380135806663
2,long_iti,grating,31,2,2,0.6277849674224854,,Prefer not to specify,2019-12-06,3,1,1,3,2,2,50,1,31.56358647231258,24.0,29.678380135806663
2,long_iti,grating,23,2,1,0.7084481716156006,,Prefer not to specify,2019-12-06,3,1,1,3,3,3,51,1,31.50256542805825,24.0,29.678380135806663
2,long_iti,grating,4,1,2,0.9684491157531738,,Prefer not to specify,2019-12-06,3,1,1,3,4,4,52,1,24.902067147558313,24.0,29.678380135806663
2,long_iti,grating,41,2,2,0.8446540832519531,,Prefer not to specify,2019-12-06,3,1,1,3,5,5,53,1,31.33420392131002,24.0,29.678380135806663
2,long_iti,grating,49,1,1,0.6669318675994873,,Prefer not to specify,2019-12-06,3,1,1,3,6,6,54,1,23.288348745268877,24.0,29.678380135806663
2,long_iti,grating,32,1,1,1.0256538391113281,,Prefer not to specify,2019-12-06,3,1,1,3,7,7,55,1,25.435282715316994,24.0,29.678380135806663
2,long_iti,grating,8,2,2,1.1247260570526123,,Prefer not to specify,2019-12-06,3,1,1,3,8,8,56,1,31.600666970566614,24.0,29.678380135806663
2,long_iti,grating,44,1,1,0.6962640285491943,,Prefer not to specify,2019-12-06,3,1,1,3,9,9,57,1,18.87612830818654,24.0,29.678380135806663
2,long_iti,grating,33,1,1,0.7248048782348633,,Prefer not to specify,2019-12-06,3,1,1,3,10,10,58,1,16.243509106080946,24.0,29.678380135806663
2,long_iti,grating,10,1,2,0.6891210079193115,,Prefer not to specify,2019-12-06,3,1,1,3,11,11,59,1,23.09596560765866,24.0,29.678380135806663
2,long_iti,grating,6,2,2,0.6236848831176758,,Prefer not to specify,2019-12-06,3,1,1,3,12,12,60,1,31.958644417930774,24.0,29.678380135806663
2,long_iti,grating,0,2,2,1.1209828853607178,,Prefer not to specify,2019-12-06,3,1,1,3,13,13,61,1,31.754785255074417,24.0,29.678380135806663
2,long_iti,grating,28,2,2,0.9849088191986084,,Prefer not to specify,2019-12-06,3,1,1,3,14,14,62,1,31.71016585029955,24.0,29.678380135806663
2,delay,grating,57,1,2,1.2963099479675293,,Prefer not to specify,2019-12-06,4,2,2,4,0,0,63,1,62.939325658680474,56.0,56.710258164073515
2,delay,grating,23,1,2,0.8245439529418945,,Prefer not to specify,2019-12-06,4,2,2,4,1,1,64,1,63.122051405122924,56.0,56.710258164073515
2,delay,grating,43,2,2,0.8695929050445557,,Prefer not to specify,2019-12-06,4,2,2,4,2,2,65,1,53.93732433572587,56.0,56.710258164073515
2,delay,grating,17,1,2,0.6874699592590332,,Prefer not to specify,2019-12-06,4,2,2,4,3,3,66,1,62.975899556364084,56.0,56.710258164073515
2,delay,grating,29,2,2,0.9172470569610596,,Prefer not to specify,2019-12-06,4,2,2,4,4,4,67,1,49.272713381713785,56.0,56.710258164073515
2,delay,grating,34,2,1,1.3465800285339355,,Prefer not to specify,2019-12-06,4,2,2,4,5,5,68,1,54.81342145076735,56.0,56.710258164073515
2,delay,grating,59,2,2,1.435448169708252,,Prefer not to specify,2019-12-06,4,2,2,4,6,6,69,1,48.56049307731692,56.0,56.710258164073515
2,delay,grating,38,2,1,1.3292591571807861,,Prefer not to specify,2019-12-06,4,2,2,4,7,7,70,1,54.752389948109226,56.0,56.710258164073515
2,delay,grating,36,1,1,1.8123080730438232,,Prefer not to specify,2019-12-06,4,2,2,4,8,8,71,1,63.94659724015278,56.0,56.710258164073515
2,delay,grating,56,2,2,0.7514128684997559,,Prefer not to specify,2019-12-06,4,2,2,4,9,9,72,1,52.71105742600606,56.0,56.710258164073515
2,delay,grating,5,1,2,1.027014970779419,,Prefer not to specify,2019-12-06,4,2,2,4,10,10,73,1,60.86017669341436,56.0,56.710258164073515
2,delay,grating,50,1,1,0.8419959545135498,,Prefer not to specify,2019-12-06,4,2,2,4,11,11,74,1,63.75876980186006,56.0,56.710258164073515
2,delay,grating,61,1,1,0.9368569850921631,,Prefer not to specify,2019-12-06,4,2,2,4,12,12,75,1,62.2694231875204,56.0,56.710258164073515
2,delay,grating,35,1,1,0.8278617858886719,,Prefer not to specify,2019-12-06,4,2,2,4,13,13,76,1,61.6744223496884,56.0,56.710258164073515
2,delay,grating,26,2,2,0.8414809703826904,,Prefer not to specify,2019-12-06,4,2,2,4,14,14,77,1,48.87435472684494,56.0,56.710258164073515
2,delay,grating,12,1,1,0.8715569972991943,,Prefer not to specify,2019-12-06,4,2,2,4,15,15,78,1,63.90137511851214,56.0,56.710258164073515
2,delay,grating,32,2,2,0.5949239730834961,,Prefer not to specify,2019-12-06,4,2,2,4,16,16,79,1,48.05266586243701,56.0,56.710258164073515
2,delay,grating,7,1,2,0.9076049327850342,,Prefer not to specify,2019-12-06,4,2,2,4,17,17,80,1,63.95212236128339,56.0,56.710258164073515
2,delay,grating,4,1,2,0.6499130725860596,,Prefer not to specify,2019-12-06,4,2,2,4,18,18,81,1,60.50510818401928,56.0,56.710258164073515
2,delay,grating,37,2,2,1.861142873764038,,Prefer not to specify,2019-12-06,4,2,2,4,19,19,82,1,54.89052346325669,56.0,56.710258164073515
2,delay,grating,49,1,1,1.2674560546875,,Prefer not to specify,2019-12-06,4,2,2,4,20,20,83,1,63.125101077808125,56.0,56.710258164073515
2,delay,grating,48,1,1,0.9299449920654297,,Prefer not to specify,2019-12-06,4,2,2,4,21,21,84,1,63.04431359638863,56.0,56.710258164073515
2,delay,grating,51,1,2,0.4989180564880371,,Prefer not to specify,2019-12-06,4,2,2,4,22,22,85,1,59.648454127016585,56.0,56.710258164073515
2,delay,grating,42,1,2,0.6674630641937256,,Prefer not to specify,2019-12-06,4,2,2,4,23,23,86,1,60.06372039462437,56.0,56.710258164073515
2,delay,grating,39,1,1,0.6563851833343506,,Prefer not to specify,2019-12-06,4,2,2,4,24,24,87,1,62.78291175039235,56.0,56.710258164073515
2,delay,grating,0,1,1,0.8535170555114746,,Prefer not to specify,2019-12-06,4,2,2,4,25,25,88,1,61.31460379122613,56.0,56.710258164073515
2,delay,grating,14,2,2,0.6432509422302246,,Prefer not to specify,2019-12-06,4,2,2,4,26,26,89,1,51.04382910320809,56.0,56.710258164073515
2,delay,grating,45,2,2,0.47364211082458496,,Prefer not to specify,2019-12-06,4,2,2,4,27,27,90,1,51.96312801336323,56.0,56.710258164073515
2,delay,grating,53,1,1,0.6308841705322266,,Prefer not to specify,2019-12-06,4,2,2,4,28,28,91,1,63.547513699616744,56.0,56.710258164073515
2,delay,grating,22,1,2,1.6712579727172852,,Prefer not to specify,2019-12-06,4,2,2,4,29,29,92,1,62.30071501726694,56.0,56.710258164073515
2,delay,grating,40,1,1,0.42273998260498047,,Prefer not to specify,2019-12-06,4,2,2,4,30,30,93,1,59.9195992442443,56.0,56.710258164073515
2,delay,grating,30,1,1,0.6486639976501465,,Prefer not to specify,2019-12-06,4,2,2,4,31,31,94,1,60.55011814683898,56.0,56.710258164073515
2,delay,grating,13,1,2,0.7193560600280762,,Prefer not to specify,2019-12-06,4,2,2,4,32,32,95,1,60.352574226997454,56.0,56.710258164073515
2,delay,grating,62,1,1,0.8481268882751465,,Prefer not to specify,2019-12-06,4,2,2,4,33,33,96,1,61.11895716072573,56.0,56.710258164073515
2,delay,grating,21,1,1,0.5925679206848145,,Prefer not to specify,2019-12-06,4,2,2,4,34,34,97,1,63.85381439417385,56.0,56.710258164073515
2,delay,grating,19,2,2,0.5339851379394531,,Prefer not to specify,2019-12-06,4,2,2,4,35,35,98,1,52.9431906086028,56.0,56.710258164073515
2,delay,grating,18,1,1,0.688960075378418,,Prefer not to specify,2019-12-06,4,2,2,4,36,36,99,1,63.99096345840126,56.0,56.710258164073515
2,delay,grating,60,1,1,0.6341931819915771,,Prefer not to specify,2019-12-06,4,2,2,4,37,37,100,1,63.32221375282841,56.0,56.710258164073515
2,delay,grating,28,2,2,0.5429840087890625,,Prefer not to specify,2019-12-06,4,2,2,4,38,38,101,1,48.990380883563276,56.0,56.710258164073515
2,delay,grating,24,2,2,0.6551330089569092,,Prefer not to specify,2019-12-06,4,2,2,4,39,39,102,1,54.63621006212613,56.0,56.710258164073515
2,delay,binary,38,1,2,0.8214821815490723,,Prefer not to specify,2019-12-06,5,2,2,5,0,0,103,4,-1,-1,56.710258164073515
2,delay,binary,21,1,1,3.012230157852173,,Prefer not to specify,2019-12-06,5,2,2,5,1,1,104,4,-1,-1,56.710258164073515
2,delay,binary,36,1,2,0.8938839435577393,,Prefer not to specify,2019-12-06,5,2,2,5,2,2,105,4,-1,-1,56.710258164073515
2,delay,binary,32,2,1,1.7022931575775146,,Prefer not to specify,2019-12-06,5,2,2,5,3,3,106,4,-1,-1,56.710258164073515
2,delay,binary,50,2,2,1.019963026046753,,Prefer not to specify,2019-12-06,5,2,2,5,4,4,107,4,-1,-1,56.710258164073515
2,delay,binary,2,2,2,0.7262709140777588,,Prefer not to specify,2019-12-06,5,2,2,5,5,5,108,4,-1,-1,56.710258164073515
2,delay,binary,28,1,1,2.8436341285705566,,Prefer not to specify,2019-12-06,5,2,2,5,6,6,109,4,-1,-1,56.710258164073515
2,delay,binary,56,2,1,2.058065891265869,,Prefer not to specify,2019-12-06,5,2,2,5,7,7,110,4,-1,-1,56.710258164073515
2,delay,binary,41,2,1,0.8978710174560547,,Prefer not to specify,2019-12-06,5,2,2,5,8,8,111,4,-1,-1,56.710258164073515
2,delay,binary,51,2,2,0.5730609893798828,,Prefer not to specify,2019-12-06,5,2,2,5,9,9,112,4,-1,-1,56.710258164073515
2,delay,binary,20,1,1,0.3563570976257324,,Prefer not to specify,2019-12-06,5,2,2,5,10,10,113,4,-1,-1,56.710258164073515
2,delay,binary,15,1,1,1.3173308372497559,,Prefer not to specify,2019-12-06,5,2,2,5,11,11,114,4,-1,-1,56.710258164073515
2,delay,binary,60,1,1,0.8301072120666504,,Prefer not to specify,2019-12-06,5,2,2,5,12,12,115,4,-1,-1,56.710258164073515
2,delay,binary,58,2,2,0.6656501293182373,,Prefer not to specify,2019-12-06,5,2,2,5,13,13,116,4,-1,-1,56.710258164073515
2,delay,binary,3,2,2,1.0005600452423096,,Prefer not to specify,2019-12-06,5,2,2,5,14,14,117,4,-1,-1,56.710258164073515
2,delay,binary,6,1,1,0.7073080539703369,,Prefer not to specify,2019-12-06,5,2,2,5,15,15,118,4,-1,-1,56.710258164073515
2,delay,binary,11,2,2,1.6819648742675781,,Prefer not to specify,2019-12-06,5,2,2,5,16,16,119,4,-1,-1,56.710258164073515
2,delay,binary,16,2,2,0.6915650367736816,,Prefer not to specify,2019-12-06,5,2,2,5,17,17,120,4,-1,-1,56.710258164073515
2,long_iti,grating,62,2,2,0.9440500736236572,,Prefer not to specify,2019-12-06,6,3,3,6,0,0,121,4,94.0376874232795,88.0,95.6869279861945
2,long_iti,grating,20,1,2,1.0025129318237305,,Prefer not to specify,2019-12-06,6,3,3,6,1,1,122,4,97.22441213226014,88.0,95.6869279861945
2,long_iti,grating,58,1,1,1.965804100036621,,Prefer not to specify,2019-12-06,6,3,3,6,2,2,123,4,97.25725289476088,88.0,95.6869279861945
2,long_iti,grating,49,1,1,1.064561128616333,,Prefer not to specify,2019-12-06,6,3,3,6,3,3,124,4,96.3519978163667,88.0,95.6869279861945
2,long_iti,grating,52,1,1,0.8576040267944336,,Prefer not to specify,2019-12-06,6,3,3,6,4,4,125,4,96.90741698512575,88.0,95.6869279861945
2,long_iti,grating,36,2,1,0.6590228080749512,,Prefer not to specify,2019-12-06,6,3,3,6,5,5,126,4,89.96698676867278,88.0,95.6869279861945
2,long_iti,grating,1,1,1,0.6348929405212402,,Prefer not to specify,2019-12-06,6,3,3,6,6,6,127,4,96.02687499194438,88.0,95.6869279861945
2,long_iti,grating,56,2,2,1.010660171508789,,Prefer not to specify,2019-12-06,6,3,3,6,7,7,128,4,88.45630605508933,88.0,95.6869279861945
2,long_iti,grating,40,2,1,1.254906177520752,,Prefer not to specify,2019-12-06,6,3,3,6,8,8,129,4,89.20812076520534,88.0,95.6869279861945
2,long_iti,grating,16,2,1,1.25807785987854,,Prefer not to specify,2019-12-06,6,3,3,6,9,9,130,4,83.51878138739814,88.0,95.6869279861945
2,long_iti,grating,24,2,1,0.6999781131744385,,Prefer not to specify,2019-12-06,6,3,3,6,10,10,131,4,90.91366199208004,88.0,95.6869279861945
2,long_iti,grating,46,1,2,0.6876461505889893,,Prefer not to specify,2019-12-06,6,3,3,6,11,11,132,4,96.66277672766346,88.0,95.6869279861945
2,long_iti,grating,7,1,1,0.6720700263977051,,Prefer not to specify,2019-12-06,6,3,3,6,12,12,133,4,96.33224156909854,88.0,95.6869279861945
2,long_iti,grating,50,2,2,0.8522000312805176,,Prefer not to specify,2019-12-06,6,3,3,6,13,13,134,4,80.4968048195565,88.0,95.6869279861945
2,long_iti,grating,43,2,2,0.8658931255340576,,Prefer not to specify,2019-12-06,6,3,3,6,14,14,135,4,81.02527338178025,88.0,95.6869279861945
2,long_iti,grating,45,2,2,0.7547180652618408,,Prefer not to specify,2019-12-06,6,3,3,6,15,15,136,4,81.57371141467628,88.0,95.6869279861945
2,long_iti,grating,11,2,1,2.2531180381774902,,Prefer not to specify,2019-12-06,6,3,3,6,16,16,137,4,83.03329290026264,88.0,95.6869279861945
2,long_iti,grating,29,1,1,0.5420701503753662,,Prefer not to specify,2019-12-06,6,3,3,6,17,17,138,4,96.68661077476489,88.0,95.6869279861945
2,long_iti,grating,34,1,1,0.9445469379425049,,Prefer not to specify,2019-12-06,6,3,3,6,18,18,139,4,96.89752043950865,88.0,95.6869279861945
2,long_iti,grating,2,1,1,0.6973059177398682,,Prefer not to specify,2019-12-06,6,3,3,6,19,19,140,4,97.17492942583787,88.0,95.6869279861945
2,long_iti,grating,59,2,2,0.8015198707580566,,Prefer not to specify,2019-12-06,6,3,3,6,20,20,141,4,80.32951389083522,88.0,95.6869279861945
2,long_iti,grating,44,2,1,1.5831120014190674,,Prefer not to specify,2019-12-06,6,3,3,6,21,21,142,4,83.40202525746413,88.0,95.6869279861945
2,long_iti,grating,41,1,1,0.8994419574737549,,Prefer not to specify,2019-12-06,6,3,3,6,22,22,143,4,97.20604216252309,88.0,95.6869279861945
2,long_iti,grating,47,2,2,1.3061809539794922,,Prefer not to specify,2019-12-06,6,3,3,6,23,23,144,4,82.60822824021848,88.0,95.6869279861945
2,long_iti,grating,42,1,1,1.368257999420166,,Prefer not to specify,2019-12-06,6,3,3,6,24,24,145,4,96.97969838560253,88.0,95.6869279861945
2,long_iti,grating,38,1,1,1.1251089572906494,,Prefer not to specify,2019-12-06,6,3,3,6,25,25,146,4,97.27858545884332,88.0,95.6869279861945
2,long_iti,grating,61,1,1,1.1444370746612549,,Prefer not to specify,2019-12-06,6,3,3,6,26,26,147,4,96.97953865628833,88.0,95.6869279861945
2,long_iti,binary,23,1,2,2.0947980880737305,,Prefer not to specify,2019-12-06,7,3,3,7,0,0,148,6,-1,-1,95.6869279861945
2,long_iti,binary,39,1,1,1.0838580131530762,,Prefer not to specify,2019-12-06,7,3,3,7,1,1,149,6,-1,-1,95.6869279861945
2,long_iti,binary,31,1,2,0.5643930435180664,,Prefer not to specify,2019-12-06,7,3,3,7,2,2,150,6,-1,-1,95.6869279861945
2,long_iti,binary,25,1,2,0.7814991474151611,,Prefer not to specify,2019-12-06,7,3,3,7,3,3,151,6,-1,-1,95.6869279861945
2,long_iti,binary,43,1,2,1.5780441761016846,,Prefer not to specify,2019-12-06,7,3,3,7,4,4,152,6,-1,-1,95.6869279861945
2,long_iti,binary,56,2,2,3.122251033782959,,Prefer not to specify,2019-12-06,7,3,3,7,5,5,153,6,-1,-1,95.6869279861945
2,long_iti,binary,41,1,2,0.6463420391082764,,Prefer not to specify,2019-12-06,7,3,3,7,6,6,154,6,-1,-1,95.6869279861945
2,long_iti,binary,12,2,2,0.4081239700317383,,Prefer not to specify,2019-12-06,7,3,3,7,7,7,155,6,-1,-1,95.6869279861945
2,long_iti,binary,2,2,2,1.0002870559692383,,Prefer not to specify,2019-12-06,7,3,3,7,8,8,156,6,-1,-1,95.6869279861945
2,long_iti,binary,9,1,1,0.5776889324188232,,Prefer not to specify,2019-12-06,7,3,3,7,9,9,157,6,-1,-1,95.6869279861945
2,long_iti,binary,37,1,1,1.5573091506958008,,Prefer not to specify,2019-12-06,7,3,3,7,10,10,158,6,-1,-1,95.6869279861945
2,long_iti,binary,20,2,2,0.47705507278442383,,Prefer not to specify,2019-12-06,7,3,3,7,11,11,159,6,-1,-1,95.6869279861945
2,long_iti,binary,54,2,2,0.6985371112823486,,Prefer not to specify,2019-12-06,7,3,3,7,12,12,160,6,-1,-1,95.6869279861945
2,long_iti,binary,34,2,2,0.8142759799957275,,Prefer not to specify,2019-12-06,7,3,3,7,13,13,161,6,-1,-1,95.6869279861945
2,long_iti,binary,48,2,2,0.7634260654449463,,Prefer not to specify,2019-12-06,7,3,3,7,14,14,162,6,-1,-1,95.6869279861945
2,long_iti,grating,49,2,1,1.4042389392852783,,Prefer not to specify,2019-12-06,8,4,4,8,0,0,163,6,46.40170865641745,40.0,43.4501246876132
2,long_iti,grating,46,1,1,0.543921947479248,,Prefer not to specify,2019-12-06,8,4,4,8,1,1,164,6,41.444318002702296,40.0,43.4501246876132
2,long_iti,grating,55,2,1,0.6745178699493408,,Prefer not to specify,2019-12-06,8,4,4,8,2,2,165,6,47.87071082523527,40.0,43.4501246876132
2,long_iti,grating,37,1,1,0.9838440418243408,,Prefer not to specify,2019-12-06,8,4,4,8,3,3,166,6,35.86253863360019,40.0,43.4501246876132
2,long_iti,grating,36,1,1,0.9798181056976318,,Prefer not to specify,2019-12-06,8,4,4,8,4,4,167,6,33.29590002143601,40.0,43.4501246876132
2,long_iti,grating,7,2,2,0.9298529624938965,,Prefer not to specify,2019-12-06,8,4,4,8,5,5,168,6,45.76337138009096,40.0,43.4501246876132
2,long_iti,grating,32,2,2,1.1091198921203613,,Prefer not to specify,2019-12-06,8,4,4,8,6,6,169,6,47.16213730337412,40.0,43.4501246876132
2,long_iti,grating,41,1,1,0.8800389766693115,,Prefer not to specify,2019-12-06,8,4,4,8,7,7,170,6,40.56748801486448,40.0,43.4501246876132
2,long_iti,grating,42,2,1,0.7350339889526367,,Prefer not to specify,2019-12-06,8,4,4,8,8,8,171,6,46.39140028903819,40.0,43.4501246876132
2,long_iti,grating,11,2,2,0.9580848217010498,,Prefer not to specify,2019-12-06,8,4,4,8,9,9,172,6,45.94345538003438,40.0,43.4501246876132
2,long_iti,grating,54,2,2,0.8626289367675781,,Prefer not to specify,2019-12-06,8,4,4,8,10,10,173,6,46.29957334927387,40.0,43.4501246876132
2,long_iti,grating,40,1,1,0.809535026550293,,Prefer not to specify,2019-12-06,8,4,4,8,11,11,174,6,38.8936835676979,40.0,43.4501246876132
2,long_iti,grating,39,2,2,0.9019639492034912,,Prefer not to specify,2019-12-06,8,4,4,8,12,12,175,6,46.678537555003494,40.0,43.4501246876132
2,long_iti,binary,6,1,2,1.8639888763427734,,Prefer not to specify,2019-12-06,9,4,4,9,0,0,176,5,-1,-1,43.4501246876132
2,long_iti,binary,34,1,1,2.065636157989502,,Prefer not to specify,2019-12-06,9,4,4,9,1,1,177,5,-1,-1,43.4501246876132
2,long_iti,binary,37,2,1,0.7948791980743408,,Prefer not to specify,2019-12-06,9,4,4,9,2,2,178,5,-1,-1,43.4501246876132
2,long_iti,binary,23,1,2,1.6360180377960205,,Prefer not to specify,2019-12-06,9,4,4,9,3,3,179,5,-1,-1,43.4501246876132
2,long_iti,binary,63,1,2,1.351311206817627,,Prefer not to specify,2019-12-06,9,4,4,9,4,4,180,5,-1,-1,43.4501246876132
2,long_iti,binary,20,2,2,1.455475091934204,,Prefer not to specify,2019-12-06,9,4,4,9,5,5,181,5,-1,-1,43.4501246876132
2,long_iti,binary,48,2,2,0.7535409927368164,,Prefer not to specify,2019-12-06,9,4,4,9,6,6,182,5,-1,-1,43.4501246876132
2,long_iti,binary,40,2,2,0.8734130859375,,Prefer not to specify,2019-12-06,9,4,4,9,7,7,183,5,-1,-1,43.4501246876132
2,long_iti,binary,36,2,2,0.5826609134674072,,Prefer not to specify,2019-12-06,9,4,4,9,8,8,184,5,-1,-1,43.4501246876132
2,long_iti,binary,61,2,1,1.1013798713684082,,Prefer not to specify,2019-12-06,9,4,4,9,9,9,185,5,-1,-1,43.4501246876132
2,long_iti,binary,10,1,1,1.5791819095611572,,Prefer not to specify,2019-12-06,9,4,4,9,10,10,186,5,-1,-1,43.4501246876132
2,long_iti,binary,4,2,2,0.4268009662628174,,Prefer not to specify,2019-12-06,9,4,4,9,11,11,187,5,-1,-1,43.4501246876132
2,long_iti,binary,22,1,2,0.9709799289703369,,Prefer not to specify,2019-12-06,9,4,4,9,12,12,188,5,-1,-1,43.4501246876132
2,long_iti,binary,50,1,1,0.5285930633544922,,Prefer not to specify,2019-12-06,9,4,4,9,13,13,189,5,-1,-1,43.4501246876132
2,long_iti,binary,1,2,1,0.48241281509399414,,Prefer not to specify,2019-12-06,9,4,4,9,14,14,190,5,-1,-1,43.4501246876132
2,long_iti,binary,16,2,1,0.6598601341247559,,Prefer not to specify,2019-12-06,9,4,4,9,15,15,191,5,-1,-1,43.4501246876132
2,long_iti,binary,38,1,1,0.6344649791717529,,Prefer not to specify,2019-12-06,9,4,4,9,16,16,192,5,-1,-1,43.4501246876132
2,long_iti,binary,3,1,1,0.4984900951385498,,Prefer not to specify,2019-12-06,9,4,4,9,17,17,193,5,-1,-1,43.4501246876132
2,long_iti,binary,35,1,1,0.6270999908447266,,Prefer not to specify,2019-12-06,9,4,4,9,18,18,194,5,-1,-1,43.4501246876132
2,long_iti,binary,18,1,1,0.6202189922332764,,Prefer not to specify,2019-12-06,9,4,4,9,19,19,195,5,-1,-1,43.4501246876132
2,long_iti,binary,52,2,2,1.535046100616455,,Prefer not to specify,2019-12-06,9,4,4,9,20,20,196,5,-1,-1,43.4501246876132
2,long_iti,binary,32,2,2,2.1497268676757812,,Prefer not to specify,2019-12-06,9,4,4,9,21,21,197,5,-1,-1,43.4501246876132
2,long_iti,binary,0,2,2,0.7956571578979492,,Prefer not to specify,2019-12-06,9,4,4,9,22,22,198,5,-1,-1,43.4501246876132
2,long_iti,binary,57,2,2,0.77577805519104,,Prefer not to specify,2019-12-06,9,4,4,9,23,23,199,5,-1,-1,43.4501246876132
2,long_iti,binary,51,1,1,0.9734799861907959,,Prefer not to specify,2019-12-06,9,4,4,9,24,24,200,5,-1,-1,43.4501246876132
2,delay,binary,0,2,1,1.6391210556030273,,Prefer not to specify,2019-12-06,10,4,4,10,0,0,201,2,-1,-1,43.4501246876132
2,delay,binary,36,2,1,1.0649728775024414,,Prefer not to specify,2019-12-06,10,4,4,10,1,1,202,2,-1,-1,43.4501246876132
2,delay,binary,21,1,1,1.2770068645477295,,Prefer not to specify,2019-12-06,10,4,4,10,2,2,203,2,-1,-1,43.4501246876132
2,delay,binary,51,1,1,0.3909471035003662,,Prefer not to specify,2019-12-06,10,4,4,10,3,3,204,2,-1,-1,43.4501246876132
2,delay,binary,33,2,2,0.5200228691101074,,Prefer not to specify,2019-12-06,10,4,4,10,4,4,205,2,-1,-1,43.4501246876132
2,delay,binary,58,1,1,0.4701650142669678,,Prefer not to specify,2019-12-06,10,4,4,10,5,5,206,2,-1,-1,43.4501246876132
2,delay,binary,20,1,1,0.46337890625,,Prefer not to specify,2019-12-06,10,4,4,10,6,6,207,2,-1,-1,43.4501246876132
2,delay,binary,13,2,2,0.4496641159057617,,Prefer not to specify,2019-12-06,10,4,4,10,7,7,208,2,-1,-1,43.4501246876132
2,delay,binary,57,1,1,0.9267411231994629,,Prefer not to specify,2019-12-06,10,4,4,10,8,8,209,2,-1,-1,43.4501246876132
2,delay,binary,2,2,2,0.8329088687896729,,Prefer not to specify,2019-12-06,10,4,4,10,9,9,210,2,-1,-1,43.4501246876132
2,delay,binary,62,1,1,0.5515758991241455,,Prefer not to specify,2019-12-06,10,4,4,10,10,10,211,2,-1,-1,43.4501246876132
2,delay,grating,43,2,2,1.5709028244018555,,Prefer not to specify,2019-12-06,11,5,5,11,0,0,212,2,15.304813585165277,8.0,13.50205235249971
2,delay,grating,47,1,2,0.7914369106292725,,Prefer not to specify,2019-12-06,11,5,5,11,1,1,213,2,10.335072465972653,8.0,13.50205235249971
2,delay,grating,49,1,1,0.7271649837493896,,Prefer not to specify,2019-12-06,11,5,5,11,2,2,214,2,10.85375638594186,8.0,13.50205235249971
2,delay,grating,41,1,2,0.7766799926757812,,Prefer not to specify,2019-12-06,11,5,5,11,3,3,215,2,6.785690461350728,8.0,13.50205235249971
2,delay,grating,61,2,2,0.5781641006469727,,Prefer not to specify,2019-12-06,11,5,5,11,4,4,216,2,15.70263714502888,8.0,13.50205235249971
2,delay,grating,23,2,2,1.071897029876709,,Prefer not to specify,2019-12-06,11,5,5,11,5,5,217,2,15.87638465670334,8.0,13.50205235249971
2,delay,grating,30,1,1,0.7610859870910645,,Prefer not to specify,2019-12-06,11,5,5,11,6,6,218,2,10.890581456290171,8.0,13.50205235249971
